{"resourceType":"Bundle","id":"scenario1-mcode-patient-bundle","meta":{"profile":["http://hl7.org/fhir/us/mcode/StructureDefinition/mcode-patient-bundle"]},"type":"collection","entry":[{"fullUrl":"http://example.org/fhir/Patient/scenario1-mcode-cancer-patient","resource":{"resourceType":"Patient","id":"scenario1-mcode-cancer-patient","meta":{"profile":["http://hl7.org/fhir/us/mcode/StructureDefinition/mcode-cancer-patient"]},"text":{"status":"extensions","div":"<div xmlns=\"http://www.w3.org/1999/xhtml\"><p><b>Generated Narrative</b></p><blockquote><p><b>US Core Ethnicity Extension</b></p><h3>Urls</h3><table class=\"grid\"><tr><td>-</td></tr><tr><td>*</td></tr></table><p><b>value</b>: <span title=\"{urn:oid:2.16.840.1.113883.6.238 2186-5}\">Not Hispanic or Latino</span></p><h3>Urls</h3><table class=\"grid\"><tr><td>-</td></tr><tr><td>*</td></tr></table><p><b>value</b>: Not Hispanic or Latino</p></blockquote><p><b>identifier</b>: Medical Record Number: MRN1234 (USUAL)</p><p><b>name</b>: First M Lastname </p><p><b>gender</b>: female</p><p><b>birthDate</b>: 1965-01-01</p><p><b>address</b>: 123 Main St Anytown 12345 United States </p><h3>Contacts</h3><table class=\"grid\"><tr><td>-</td><td><b>Telecom</b></td></tr><tr><td>*</td><td>ph: 555-555-5555(HOME), <a href=\"mailto:example@example.com\">example@example.com</a></td></tr></table><h3>Communications</h3><table class=\"grid\"><tr><td>-</td><td><b>Language</b></td></tr><tr><td>*</td><td><span title=\"Codes: {urn:ietf:bcp:47 en-US}\">English</span></td></tr></table></div>"},"extension":[{"extension":[{"url":"ombCategory","valueCoding":{"system":"urn:oid:2.16.840.1.113883.6.238","code":"2186-5","display":"Not Hispanic or Latino"}},{"url":"text","valueString":"Not Hispanic or Latino"}],"url":"http://hl7.org/fhir/us/core/StructureDefinition/us-core-ethnicity"}],"identifier":[{"use":"usual","type":{"coding":[{"system":"http://terminology.hl7.org/CodeSystem/v2-0203","code":"MR","display":"Medical Record Number"}]},"system":"http://hospital.example.org","value":"MRN1234"}],"name":[{"family":"Lastname","given":["First","M"]}],"gender":"female","birthDate":"1965-01-01","address":[{"line":["123 Main St"],"city":"Anytown","postalCode":"12345","country":"United States"}],"contact":[{"telecom":[{"system":"phone","value":"555-555-5555","use":"home"},{"system":"email","value":"example@example.com"}]}],"communication":[{"language":{"coding":[{"system":"urn:ietf:bcp:47","code":"en-US"}],"text":"English"}}]}},{"fullUrl":"http://example.org/fhir/Condition/scenario1-mcode-primary-cancer-condition","resource":{"resourceType":"Condition","id":"scenario1-mcode-primary-cancer-condition","meta":{"profile":["http://hl7.org/fhir/us/mcode/StructureDefinition/mcode-primary-cancer-condition"]},"text":{"status":"extensions","div":"<div xmlns=\"http://www.w3.org/1999/xhtml\"><p><b>Generated Narrative</b></p><p><b>Histology-Morphology-Behavior</b>: <span title=\"Codes: {http://snomed.info/sct 413448000}\">Adenocarcinoma, no subtype, intermediate grade (morphologic abnormality)</span></p><p><b>clinicalStatus</b>: <span title=\"Codes: {http://terminology.hl7.org/CodeSystem/condition-clinical remission}\">Remission</span></p><p><b>verificationStatus</b>: <span title=\"Codes: {http://terminology.hl7.org/CodeSystem/condition-ver-status confirmed}\">Confirmed</span></p><p><b>category</b>: <span title=\"Codes: {http://terminology.hl7.org/CodeSystem/condition-category problem-list-item}\">Problem List Item</span></p><p><b>code</b>: <span title=\"Codes: {http://snomed.info/sct 353431000119107}\">Primary malignant neoplasm of female left breast (disorder)</span></p><p><b>subject</b>: <a href=\"#Patient_scenario1-mcode-cancer-patient\">See above (Patient/scenario1-mcode-cancer-patient)</a></p><p><b>onset</b>: 2018-03-15</p><p><b>asserter</b>: <a href=\"#Practitioner_scenario1-us-core-practitioner\">See above (Practitioner/scenario1-us-core-practitioner)</a></p><h3>Stages</h3><table class=\"grid\"><tr><td>-</td><td><b>Summary</b></td><td><b>Assessment</b></td></tr><tr><td>*</td><td><span title=\"Codes: {http://cancerstaging.org 3C}\">3C</span></td><td><a href=\"#Observation_scenario1-mcode-tnm-clinical-stage-group\">See above (Observation/scenario1-mcode-tnm-clinical-stage-group)</a></td></tr></table></div>"},"extension":[{"url":"http://hl7.org/fhir/us/mcode/StructureDefinition/mcode-histology-morphology-behavior","valueCodeableConcept":{"coding":[{"system":"http://snomed.info/sct","code":"413448000","display":"Adenocarcinoma, no subtype, intermediate grade (morphologic abnormality)"}]}}],"clinicalStatus":{"coding":[{"system":"http://terminology.hl7.org/CodeSystem/condition-clinical","code":"remission"}]},"verificationStatus":{"coding":[{"system":"http://terminology.hl7.org/CodeSystem/condition-ver-status","code":"confirmed"}]},"category":[{"coding":[{"system":"http://terminology.hl7.org/CodeSystem/condition-category","code":"problem-list-item"}]}],"code":{"coding":[{"system":"http://snomed.info/sct","code":"353431000119107","display":"Primary malignant neoplasm of female left breast (disorder)"}]},"subject":{"reference":"Patient/scenario1-mcode-cancer-patient"},"onsetDateTime":"2018-03-15","asserter":{"reference":"Practitioner/scenario1-us-core-practitioner"},"stage":[{"summary":{"coding":[{"system":"http://cancerstaging.org","code":"3C"}]},"assessment":[{"reference":"Observation/scenario1-mcode-tnm-clinical-stage-group"}]}]}},{"fullUrl":"http://example.org/fhir/Observation/scenario1-mcode-cancer-disease-status","resource":{"resourceType":"Observation","id":"scenario1-mcode-cancer-disease-status","meta":{"profile":["http://hl7.org/fhir/us/mcode/StructureDefinition/mcode-cancer-disease-status"]},"text":{"status":"extensions","div":"<div xmlns=\"http://www.w3.org/1999/xhtml\"><p><b>Generated Narrative</b></p><p><b>Evidence Type</b>: <span title=\"Codes: {http://snomed.info/sct 363679005}\">Imaging (procedure)</span></p><p></p><p><b>code</b>: <span title=\"Codes: {http://loinc.org 88040-1}\">Response to cancer treatment</span></p><p><b>subject</b>: <a href=\"#Patient_scenario1-mcode-cancer-patient\">See above (Patient/scenario1-mcode-cancer-patient)</a></p><p><b>focus</b>: <a href=\"#Condition_scenario1-mcode-primary-cancer-condition\">See above (Condition/scenario1-mcode-primary-cancer-condition)</a></p><p><b>effective</b>: 2020-03-01</p><p><b>performer</b>: <a href=\"#Practitioner_scenario1-us-core-practitioner\">See above (Practitioner/scenario1-us-core-practitioner)</a></p><p><b>value</b>: <span title=\"Codes: {http://snomed.info/sct 268910001}\">Patient's condition improved (finding)</span></p></div>"},"extension":[{"url":"http://hl7.org/fhir/us/mcode/StructureDefinition/mcode-evidence-type","valueCodeableConcept":{"coding":[{"system":"http://snomed.info/sct","code":"363679005","display":"Imaging (procedure)"}]}}],"status":"final","code":{"coding":[{"system":"http://loinc.org","code":"88040-1","display":"Response to cancer treatment"}]},"subject":{"reference":"Patient/scenario1-mcode-cancer-patient"},"focus":[{"reference":"Condition/scenario1-mcode-primary-cancer-condition"}],"effectiveDateTime":"2020-03-01","performer":[{"reference":"Practitioner/scenario1-us-core-practitioner"}],"valueCodeableConcept":{"coding":[{"system":"http://snomed.info/sct","code":"268910001","display":"Patient's condition improved (finding)"}]}}},{"fullUrl":"http://example.org/fhir/Observation/scenario1-mcode-cancer-genetic-variant","resource":{"resourceType":"Observation","id":"scenario1-mcode-cancer-genetic-variant","meta":{"profile":["http://hl7.org/fhir/us/mcode/StructureDefinition/mcode-cancer-genetic-variant"]},"text":{"status":"generated","div":"<div xmlns=\"http://www.w3.org/1999/xhtml\"><p><b>Generated Narrative</b></p><p></p><p><b>category</b>: <span title=\"Codes: {http://terminology.hl7.org/CodeSystem/observation-category laboratory}\">Laboratory</span></p><p><b>code</b>: <span title=\"Codes: {http://loinc.org 69548-6}\">Genetic variant assessment</span></p><p><b>subject</b>: <a href=\"#Patient_scenario1-mcode-cancer-patient\">See above (Patient/scenario1-mcode-cancer-patient)</a></p><p><b>effective</b>: 2018-03-15</p><p><b>value</b>: <span title=\"Codes: {http://loinc.org LA9633-4}\">Present</span></p><p><b>method</b>: <span title=\"Codes: {http://loinc.org LA26398-0}\">Sequencing</span></p><blockquote><p><b>component</b></p><p><b>code</b>: <span title=\"Codes: {http://loinc.org 48018-6}\">Gene studied [ID]</span></p><p><b>value</b>: <span title=\"Codes: {http://www.genenames.org HGNC:26144}\">PALB2</span></p></blockquote><blockquote><p><b>component</b></p><p><b>code</b>: <span title=\"Codes: {http://loinc.org 81252-9}\">Discrete genetic variant</span></p><p><b>value</b>: <span title=\"Codes: {http://www.ncbi.nlm.nih.gov/clinvar 128144}\">NM_024675.3(PALB2):c.3549C&gt;A (p.Tyr1183Ter)</span></p></blockquote><blockquote><p><b>component</b></p><p><b>code</b>: <span title=\"Codes: {http://loinc.org 81290-9}\">Genomic DNA change (gHGVS)</span></p><p><b>value</b>: <span title=\"Codes: {http://varnomen.hgvs.org NC_000016.10:g.23603471G&gt;T}\">NC_000016.10:g.23603471G&gt;T</span></p></blockquote><blockquote><p><b>component</b></p><p><b>code</b>: <span title=\"Codes: {http://loinc.org 48002-0}\">Genomic source class [Type]</span></p><p><b>value</b>: <span title=\"Codes: {http://loinc.org LA6684-0}\">Somatic</span></p></blockquote></div>"},"status":"final","category":[{"coding":[{"system":"http://terminology.hl7.org/CodeSystem/observation-category","code":"laboratory"}]}],"code":{"coding":[{"system":"http://loinc.org","code":"69548-6","display":"Genetic variant assessment"}]},"subject":{"reference":"Patient/scenario1-mcode-cancer-patient"},"effectiveDateTime":"2018-03-15","valueCodeableConcept":{"coding":[{"system":"http://loinc.org","code":"LA9633-4","display":"Present"}]},"method":{"coding":[{"system":"http://loinc.org","code":"LA26398-0","display":"Sequencing"}]},"component":[{"code":{"coding":[{"system":"http://loinc.org","code":"48018-6"}]},"valueCodeableConcept":{"coding":[{"system":"http://www.genenames.org","code":"HGNC:26144","display":"PALB2"}]}},{"code":{"coding":[{"system":"http://loinc.org","code":"81252-9"}]},"valueCodeableConcept":{"coding":[{"system":"http://www.ncbi.nlm.nih.gov/clinvar","code":"128144","display":"NM_024675.3(PALB2):c.3549C>A (p.Tyr1183Ter)"}]}},{"code":{"coding":[{"system":"http://loinc.org","code":"81290-9"}]},"valueCodeableConcept":{"coding":[{"system":"http://varnomen.hgvs.org","code":"NC_000016.10:g.23603471G>T"}]}},{"code":{"coding":[{"system":"http://loinc.org","code":"48002-0"}]},"valueCodeableConcept":{"coding":[{"system":"http://loinc.org","code":"LA6684-0","display":"Somatic"}]}}]}},{"fullUrl":"http://example.org/fhir/DiagnosticReport/scenario1-mcode-cancer-genomics-report","resource":{"resourceType":"DiagnosticReport","id":"scenario1-mcode-cancer-genomics-report","meta":{"profile":["http://hl7.org/fhir/us/mcode/StructureDefinition/mcode-cancer-genomics-report"]},"text":{"status":"generated","div":"<div xmlns=\"http://www.w3.org/1999/xhtml\"><p><b>Generated Narrative</b></p><p><b>status</b>: final</p><p><b>category</b>: <span title=\"Codes: {http://terminology.hl7.org/CodeSystem/v2-0074 LAB}\">Laboratory</span>, <span title=\"Codes: {http://terminology.hl7.org/CodeSystem/v2-0074 GE}\">Genetics</span></p><p><b>code</b>: <span title=\"Codes: {http://loinc.org 81247-9}\">Master HL7 genetic variant reporting panel</span></p><p><b>subject</b>: <a href=\"#Patient_scenario1-mcode-cancer-patient\">See above (Patient/scenario1-mcode-cancer-patient)</a></p><p><b>effective</b>: 2020-03-15</p><p><b>issued</b>: Mar 15, 2020, 12:00:01 AM</p><p><b>specimen</b>: <a href=\"#Specimen_scenario1-mcode-genetic-specimen\">See above (Specimen/scenario1-mcode-genetic-specimen)</a></p><p><b>result</b>: </p><ul><li><a href=\"#Observation_scenario1-mcode-cancer-genetic-variant\">See above (Observation/scenario1-mcode-cancer-genetic-variant)</a></li><li><a href=\"#Observation_scenario1-mcode-genomic-region-studied\">See above (Observation/scenario1-mcode-genomic-region-studied)</a></li></ul></div>"},"status":"final","category":[{"coding":[{"system":"http://terminology.hl7.org/CodeSystem/v2-0074","code":"LAB"}]},{"coding":[{"system":"http://terminology.hl7.org/CodeSystem/v2-0074","code":"GE"}]}],"code":{"coding":[{"system":"http://loinc.org","code":"81247-9"}]},"subject":{"reference":"Patient/scenario1-mcode-cancer-patient"},"effectiveDateTime":"2020-03-15","issued":"2020-03-15T00:00:01+00:00","specimen":[{"reference":"Specimen/scenario1-mcode-genetic-specimen"}],"result":[{"reference":"Observation/scenario1-mcode-cancer-genetic-variant"},{"reference":"Observation/scenario1-mcode-genomic-region-studied"}]}},{"fullUrl":"http://example.org/fhir/Procedure/scenario1-mcode-cancer-related-surgical-procedure-mastectomy","resource":{"resourceType":"Procedure","id":"scenario1-mcode-cancer-related-surgical-procedure-mastectomy","meta":{"profile":["http://hl7.org/fhir/us/mcode/StructureDefinition/mcode-cancer-related-surgical-procedure"]},"text":{"status":"extensions","div":"<div xmlns=\"http://www.w3.org/1999/xhtml\"><p><b>Generated Narrative</b></p><p><b>Treatment Intent</b>: <span title=\"Codes: {http://snomed.info/sct 373808002}\">Curative - procedure intent (qualifier value)</span></p><p><b>status</b>: completed</p><p><b>category</b>: <span title=\"Codes: {http://snomed.info/sct 387713003}\">Surgical procedure (procedure)</span></p><p><b>code</b>: <span title=\"Codes: {http://snomed.info/sct 64368001}\">Partial mastectomy (procedure)</span></p><p><b>subject</b>: <a href=\"#Patient_scenario1-mcode-cancer-patient\">See above (Patient/scenario1-mcode-cancer-patient)</a></p><p><b>performed</b>: 2019-03-05</p><p><b>asserter</b>: <a href=\"#Practitioner_scenario1-us-core-practitioner\">See above (Practitioner/scenario1-us-core-practitioner)</a></p><p><b>reasonReference</b>: <a href=\"#Condition_scenario1-mcode-primary-cancer-condition\">See above (Condition/scenario1-mcode-primary-cancer-condition)</a></p><p><b>bodySite</b>: <span title=\"Codes: {http://snomed.info/sct 80248007}\">Left breast structure (body structure)</span></p></div>"},"extension":[{"url":"http://hl7.org/fhir/us/mcode/StructureDefinition/mcode-treatment-intent","valueCodeableConcept":{"coding":[{"system":"http://snomed.info/sct","code":"373808002","display":"Curative - procedure intent (qualifier value)"}]}}],"status":"completed","category":{"coding":[{"system":"http://snomed.info/sct","code":"387713003"}]},"code":{"coding":[{"system":"http://snomed.info/sct","code":"64368001","display":"Partial mastectomy (procedure)"}]},"subject":{"reference":"Patient/scenario1-mcode-cancer-patient"},"performedDateTime":"2019-03-05","asserter":{"reference":"Practitioner/scenario1-us-core-practitioner"},"reasonReference":[{"reference":"Condition/scenario1-mcode-primary-cancer-condition"}],"bodySite":[{"coding":[{"system":"http://snomed.info/sct","code":"80248007","display":"Left breast structure (body structure)"}]}]}},{"fullUrl":"http://example.org/fhir/Procedure/scenario1-mcode-cancer-related-radiation-procedure","resource":{"resourceType":"Procedure","id":"scenario1-mcode-cancer-related-radiation-procedure","meta":{"profile":["http://hl7.org/fhir/us/mcode/StructureDefinition/mcode-cancer-related-radiation-procedure"]},"text":{"status":"extensions","div":"<div xmlns=\"http://www.w3.org/1999/xhtml\"><p><b>Generated Narrative</b></p><p><b>Treatment Intent</b>: <span title=\"Codes: {http://snomed.info/sct 373808002}\">Curative - procedure intent (qualifier value)</span></p><p><b>status</b>: completed</p><p><b>category</b>: <span title=\"Codes: {http://snomed.info/sct 53438000}\">Radiation therapy procedure or service</span></p><p><b>code</b>: <span title=\"Codes: {http://snomed.info/sct 385798007}\">Radiation therapy care (regime/therapy)</span></p><p><b>subject</b>: <a href=\"#Patient_scenario1-mcode-cancer-patient\">See above (Patient/scenario1-mcode-cancer-patient)</a></p><p><b>performed</b>: 2018-03-20</p><p><b>asserter</b>: <a href=\"#Practitioner_scenario1-us-core-practitioner\">See above (Practitioner/scenario1-us-core-practitioner)</a></p><p><b>reasonReference</b>: <a href=\"#Condition_scenario1-mcode-primary-cancer-condition\">See above (Condition/scenario1-mcode-primary-cancer-condition)</a></p><p><b>bodySite</b>: <span title=\"Codes: {http://snomed.info/sct 80248007}\">Left breast structure (body structure)</span></p></div>"},"extension":[{"url":"http://hl7.org/fhir/us/mcode/StructureDefinition/mcode-treatment-intent","valueCodeableConcept":{"coding":[{"system":"http://snomed.info/sct","code":"373808002","display":"Curative - procedure intent (qualifier value)"}]}}],"status":"completed","category":{"coding":[{"system":"http://snomed.info/sct","code":"53438000"}]},"code":{"coding":[{"system":"http://snomed.info/sct","code":"385798007","display":"Radiation therapy care (regime/therapy)"}]},"subject":{"reference":"Patient/scenario1-mcode-cancer-patient"},"performedDateTime":"2018-03-20","asserter":{"reference":"Practitioner/scenario1-us-core-practitioner"},"reasonReference":[{"reference":"Condition/scenario1-mcode-primary-cancer-condition"}],"bodySite":[{"coding":[{"system":"http://snomed.info/sct","code":"80248007","display":"Left breast structure (body structure)"}]}]}},{"fullUrl":"http://example.org/fhir/Observation/scenario1-mcode-tnm-clinical-stage-group","resource":{"resourceType":"Observation","id":"scenario1-mcode-tnm-clinical-stage-group","meta":{"profile":["http://hl7.org/fhir/us/mcode/StructureDefinition/mcode-tnm-clinical-stage-group"]},"text":{"status":"generated","div":"<div xmlns=\"http://www.w3.org/1999/xhtml\"><p><b>Generated Narrative</b></p><p></p><p><b>code</b>: <span title=\"Codes: {http://loinc.org 21908-9}\">Stage group.clinical Cancer</span></p><p><b>subject</b>: <a href=\"#Patient_scenario1-mcode-cancer-patient\">See above (Patient/scenario1-mcode-cancer-patient)</a></p><p><b>effective</b>: 2018-03-10</p><p><b>value</b>: <span title=\"Codes: {http://cancerstaging.org 2B}\">IIB</span></p><p><b>method</b>: <span title=\"Codes: {http://ncithesaurus-stage.nci.nih.gov C146985}\">AJCC Cancer Staging Manual 8th Edition</span></p><p><b>hasMember</b>: </p><ul><li><a href=\"#Observation_scenario1-mcode-tnm-primary-tumor-category\">See above (Observation/scenario1-mcode-tnm-primary-tumor-category)</a></li><li><a href=\"#Observation_scenario1-mcode-tnm-clinical-regional-nodes-category\">See above (Observation/scenario1-mcode-tnm-clinical-regional-nodes-category)</a></li><li><a href=\"#Observation_scenario1-mcode-tnm-clinical-distant-metastases-category\">See above (Observation/scenario1-mcode-tnm-clinical-distant-metastases-category)</a></li></ul></div>"},"status":"final","code":{"coding":[{"system":"http://loinc.org","code":"21908-9","display":"Stage group.clinical Cancer"}]},"subject":{"reference":"Patient/scenario1-mcode-cancer-patient"},"effectiveDateTime":"2018-03-10","valueCodeableConcept":{"coding":[{"system":"http://cancerstaging.org","code":"2B","display":"IIB"}]},"method":{"coding":[{"system":"http://ncithesaurus-stage.nci.nih.gov","code":"C146985","display":"AJCC Cancer Staging Manual 8th Edition"}]},"hasMember":[{"reference":"Observation/scenario1-mcode-tnm-primary-tumor-category"},{"reference":"Observation/scenario1-mcode-tnm-clinical-regional-nodes-category"},{"reference":"Observation/scenario1-mcode-tnm-clinical-distant-metastases-category"}]}},{"fullUrl":"http://example.org/fhir/Observation/scenario1-mcode-tnm-primary-tumor-category","resource":{"resourceType":"Observation","id":"scenario1-mcode-tnm-primary-tumor-category","meta":{"profile":["http://hl7.org/fhir/us/mcode/StructureDefinition/mcode-tnm-clinical-primary-tumor-category"]},"text":{"status":"generated","div":"<div xmlns=\"http://www.w3.org/1999/xhtml\"><p><b>Generated Narrative</b></p><p></p><p><b>code</b>: <span title=\"Codes: {http://loinc.org 21905-5}\">Primary tumor.clinical [Class] Cancer</span></p><p><b>subject</b>: <a href=\"#Patient_scenario1-mcode-cancer-patient\">See above (Patient/scenario1-mcode-cancer-patient)</a></p><p><b>effective</b>: 2018-03-10</p><p><b>value</b>: <span title=\"Codes: {http://cancerstaging.org cT3}\">cT3</span></p><p><b>method</b>: <span title=\"Codes: {http://ncithesaurus-stage.nci.nih.gov C146985}\">AJCC Cancer Staging Manual 8th Edition</span></p></div>"},"status":"final","code":{"coding":[{"system":"http://loinc.org","code":"21905-5","display":"Primary tumor.clinical [Class] Cancer"}]},"subject":{"reference":"Patient/scenario1-mcode-cancer-patient"},"effectiveDateTime":"2018-03-10","valueCodeableConcept":{"coding":[{"system":"http://cancerstaging.org","code":"cT3"}]},"method":{"coding":[{"system":"http://ncithesaurus-stage.nci.nih.gov","code":"C146985","display":"AJCC Cancer Staging Manual 8th Edition"}]}}},{"fullUrl":"http://example.org/fhir/Observation/scenario1-mcode-tnm-clinical-regional-nodes-category","resource":{"resourceType":"Observation","id":"scenario1-mcode-tnm-clinical-regional-nodes-category","meta":{"profile":["http://hl7.org/fhir/us/mcode/StructureDefinition/mcode-tnm-clinical-regional-nodes-category"]},"text":{"status":"generated","div":"<div xmlns=\"http://www.w3.org/1999/xhtml\"><p><b>Generated Narrative</b></p><p></p><p><b>code</b>: <span title=\"Codes: {http://loinc.org 21906-3}\">Regional lymph nodes.clinical [Class] Cancer</span></p><p><b>subject</b>: <a href=\"#Patient_scenario1-mcode-cancer-patient\">See above (Patient/scenario1-mcode-cancer-patient)</a></p><p><b>effective</b>: 2018-03-10</p><p><b>value</b>: <span title=\"Codes: {http://cancerstaging.org cN0}\">cN0</span></p><p><b>method</b>: <span title=\"Codes: {http://ncithesaurus-stage.nci.nih.gov C146985}\">AJCC Cancer Staging Manual 8th Edition</span></p></div>"},"status":"final","code":{"coding":[{"system":"http://loinc.org","code":"21906-3","display":"Regional lymph nodes.clinical [Class] Cancer"}]},"subject":{"reference":"Patient/scenario1-mcode-cancer-patient"},"effectiveDateTime":"2018-03-10","valueCodeableConcept":{"coding":[{"system":"http://cancerstaging.org","code":"cN0"}]},"method":{"coding":[{"system":"http://ncithesaurus-stage.nci.nih.gov","code":"C146985","display":"AJCC Cancer Staging Manual 8th Edition"}]}}},{"fullUrl":"http://example.org/fhir/Observation/scenario1-mcode-tnm-clinical-distant-metastases-category","resource":{"resourceType":"Observation","id":"scenario1-mcode-tnm-clinical-distant-metastases-category","meta":{"profile":["http://hl7.org/fhir/us/mcode/StructureDefinition/mcode-tnm-clinical-distant-metastases-category"]},"text":{"status":"generated","div":"<div xmlns=\"http://www.w3.org/1999/xhtml\"><p><b>Generated Narrative</b></p><p></p><p><b>code</b>: <span title=\"Codes: {http://loinc.org 21907-1}\">Distant metastases.clinical [Class] Cancer</span></p><p><b>subject</b>: <a href=\"#Patient_scenario1-mcode-cancer-patient\">See above (Patient/scenario1-mcode-cancer-patient)</a></p><p><b>effective</b>: 2018-03-10</p><p><b>value</b>: <span title=\"Codes: {http://cancerstaging.org cM0}\">cM0</span></p><p><b>method</b>: <span title=\"Codes: {http://ncithesaurus-stage.nci.nih.gov C146985}\">AJCC Cancer Staging Manual 8th Edition</span></p></div>"},"status":"final","code":{"coding":[{"system":"http://loinc.org","code":"21907-1","display":"Distant metastases.clinical [Class] Cancer"}]},"subject":{"reference":"Patient/scenario1-mcode-cancer-patient"},"effectiveDateTime":"2018-03-10","valueCodeableConcept":{"coding":[{"system":"http://cancerstaging.org","code":"cM0"}]},"method":{"coding":[{"system":"http://ncithesaurus-stage.nci.nih.gov","code":"C146985","display":"AJCC Cancer Staging Manual 8th Edition"}]}}},{"fullUrl":"http://example.org/fhir/Specimen/scenario1-mcode-genetic-specimen","resource":{"resourceType":"Specimen","id":"scenario1-mcode-genetic-specimen","meta":{"profile":["http://hl7.org/fhir/us/mcode/StructureDefinition/mcode-genetic-specimen"]},"text":{"status":"generated","div":"<div xmlns=\"http://www.w3.org/1999/xhtml\"><p><b>Generated Narrative</b></p><p><b>status</b>: available</p><p><b>type</b>: <span title=\"Codes: {http://terminology.hl7.org/CodeSystem/v2-0487 TISS}\">Tissue</span></p><p><b>subject</b>: <a href=\"#Patient_scenario1-mcode-cancer-patient\">See above (Patient/scenario1-mcode-cancer-patient)</a></p><h3>Collections</h3><table class=\"grid\"><tr><td>-</td><td><b>Collector</b></td><td><b>BodySite</b></td></tr><tr><td>*</td><td><a href=\"#Practitioner_scenario1-us-core-practitioner\">See above (Practitioner/scenario1-us-core-practitioner)</a></td><td><span title=\"Codes: {http://snomed.info/sct 80248007}\">Left breast structure (body structure)</span></td></tr></table><h3>Processings</h3><table class=\"grid\"><tr><td>-</td><td><b>Time[x]</b></td></tr><tr><td>*</td><td>2018-03-01</td></tr></table></div>"},"status":"available","type":{"coding":[{"system":"http://terminology.hl7.org/CodeSystem/v2-0487","code":"TISS"}]},"subject":{"reference":"Patient/scenario1-mcode-cancer-patient"},"collection":{"collector":{"reference":"Practitioner/scenario1-us-core-practitioner"},"bodySite":{"coding":[{"system":"http://snomed.info/sct","code":"80248007","display":"Left breast structure (body structure)"}]}},"processing":[{"timeDateTime":"2018-03-01"}]}},{"fullUrl":"http://example.org/fhir/Observation/scenario1-mcode-genomic-region-studied","resource":{"resourceType":"Observation","id":"scenario1-mcode-genomic-region-studied","meta":{"profile":["http://hl7.org/fhir/us/mcode/StructureDefinition/mcode-genomic-region-studied"]},"text":{"status":"generated","div":"<div xmlns=\"http://www.w3.org/1999/xhtml\"><p><b>Generated Narrative</b></p><p></p><p><b>category</b>: <span title=\"Codes: {http://terminology.hl7.org/CodeSystem/observation-category laboratory}\">Laboratory</span></p><p><b>code</b>: <span title=\"Codes: {http://loinc.org 53041-0}\">DNA region of interest panel</span></p><p><b>subject</b>: <a href=\"#Patient_scenario1-mcode-cancer-patient\">See above (Patient/scenario1-mcode-cancer-patient)</a></p><p><b>effective</b>: 2018-04-01</p><p><b>issued</b>: Apr 1, 2018, 12:00:01 AM</p><h3>Components</h3><table class=\"grid\"><tr><td>-</td><td><b>Code</b></td><td><b>Value[x]</b></td></tr><tr><td>*</td><td><span title=\"Codes: {http://loinc.org 48018-6}\">Gene studied [ID]</span></td><td><span title=\"Codes: {http://www.genenames.org 1100}, {http://www.genenames.org 1101}, {http://www.genenames.org 1748}, {http://www.genenames.org 26144}, {http://www.genenames.org 9588}, {http://www.genenames.org 11389}, {http://www.genenames.org 11998}\">BRCA1</span></td></tr></table></div>"},"status":"final","category":[{"coding":[{"system":"http://terminology.hl7.org/CodeSystem/observation-category","code":"laboratory"}]}],"code":{"coding":[{"system":"http://loinc.org","code":"53041-0","display":"DNA region of interest panel"}]},"subject":{"reference":"Patient/scenario1-mcode-cancer-patient"},"effectiveDateTime":"2018-04-01","issued":"2018-04-01T00:00:01+00:00","component":[{"code":{"coding":[{"system":"http://loinc.org","code":"48018-6","display":"Gene studied [ID]"}]},"valueCodeableConcept":{"coding":[{"system":"http://www.genenames.org","code":"1100","display":"BRCA1"},{"system":"http://www.genenames.org","code":"1101","display":"BRCA2"},{"system":"http://www.genenames.org","code":"1748","display":"CDH1"},{"system":"http://www.genenames.org","code":"26144","display":"PALB2"},{"system":"http://www.genenames.org","code":"9588","display":"PTEN"},{"system":"http://www.genenames.org","code":"11389","display":"STK11"},{"system":"http://www.genenames.org","code":"11998","display":"TP53"}]}}]}},{"fullUrl":"http://example.org/fhir/Observation/scenario1-mcode-ecog-performance-status","resource":{"resourceType":"Observation","id":"scenario1-mcode-ecog-performance-status","meta":{"profile":["http://hl7.org/fhir/us/mcode/StructureDefinition/mcode-ecog-performance-status"]},"text":{"status":"generated","div":"<div xmlns=\"http://www.w3.org/1999/xhtml\"><p><b>Generated Narrative</b></p><p></p><p><b>code</b>: <span title=\"Codes: {http://loinc.org 89247-1}\">ECOG Performance Status score</span></p><p><b>subject</b>: <a href=\"#Patient_scenario1-mcode-cancer-patient\">See above (Patient/scenario1-mcode-cancer-patient)</a></p><p><b>effective</b>: 2018-03-01</p><p><b>performer</b>: <a href=\"#Practitioner_scenario1-us-core-practitioner\">See above (Practitioner/scenario1-us-core-practitioner)</a></p><p><b>value</b>: 0</p><p><b>interpretation</b>: <span title=\"Codes: {http://loinc.org LA9622-7}\">Fully active, able to carry on all pre-disease performance without restriction</span></p><p><b>method</b>: <span title=\"Codes: {http://snomed.info/sct 5880005}\">Physical examination procedure (procedure)</span></p></div>"},"status":"final","code":{"coding":[{"system":"http://loinc.org","code":"89247-1"}]},"subject":{"reference":"Patient/scenario1-mcode-cancer-patient"},"effectiveDateTime":"2018-03-01","performer":[{"reference":"Practitioner/scenario1-us-core-practitioner"}],"valueInteger":0,"interpretation":[{"coding":[{"system":"http://loinc.org","code":"LA9622-7","display":"Fully active, able to carry on all pre-disease performance without restriction"}]}],"method":{"coding":[{"system":"http://snomed.info/sct","code":"5880005","display":"Physical examination procedure (procedure)"}]}}},{"fullUrl":"http://example.org/fhir/Observation/scenario1-mcode-tumor-marker-test-er","resource":{"resourceType":"Observation","id":"scenario1-mcode-tumor-marker-test-er","meta":{"profile":["http://hl7.org/fhir/us/mcode/StructureDefinition/mcode-tumor-marker-test"]},"text":{"status":"generated","div":"<div xmlns=\"http://www.w3.org/1999/xhtml\"><p><b>Generated Narrative</b></p><p></p><p><b>category</b>: <span title=\"Codes: {http://terminology.hl7.org/CodeSystem/observation-category laboratory}\">Laboratory</span></p><p><b>code</b>: <span title=\"Codes: {http://loinc.org 85337-4}\">Estrogen receptor Ag [Presence] in Breast cancer specimen by Immune stain</span></p><p><b>subject</b>: <a href=\"#Patient_scenario1-mcode-cancer-patient\">See above (Patient/scenario1-mcode-cancer-patient)</a></p><p><b>effective</b>: 2018-03-10</p><p><b>performer</b>: <a href=\"#Practitioner_scenario1-us-core-practitioner\">See above (Practitioner/scenario1-us-core-practitioner)</a></p><p><b>value</b>: <span title=\"Codes: {http://loinc.org LA6576-8}\">Positive</span></p></div>"},"status":"final","category":[{"coding":[{"system":"http://terminology.hl7.org/CodeSystem/observation-category","code":"laboratory"}]}],"code":{"coding":[{"system":"http://loinc.org","code":"85337-4","display":"Estrogen receptor Ag [Presence] in Breast cancer specimen by Immune stain"}]},"subject":{"reference":"Patient/scenario1-mcode-cancer-patient"},"effectiveDateTime":"2018-03-10","performer":[{"reference":"Practitioner/scenario1-us-core-practitioner"}],"valueCodeableConcept":{"coding":[{"system":"http://loinc.org","code":"LA6576-8","display":"Positive"}]}}},{"fullUrl":"http://example.org/fhir/Observation/scenario1-mcode-tumor-marker-test-pr","resource":{"resourceType":"Observation","id":"scenario1-mcode-tumor-marker-test-pr","meta":{"profile":["http://hl7.org/fhir/us/mcode/StructureDefinition/mcode-tumor-marker-test"]},"text":{"status":"generated","div":"<div xmlns=\"http://www.w3.org/1999/xhtml\"><p><b>Generated Narrative</b></p><p></p><p><b>category</b>: <span title=\"Codes: {http://terminology.hl7.org/CodeSystem/observation-category laboratory}\">Laboratory</span></p><p><b>code</b>: <span title=\"Codes: {http://loinc.org 85339-0}\">Progesterone receptor Ag [Presence] in Breast cancer specimen by Immune stain</span></p><p><b>subject</b>: <a href=\"#Patient_scenario1-mcode-cancer-patient\">See above (Patient/scenario1-mcode-cancer-patient)</a></p><p><b>effective</b>: 2018-03-10</p><p><b>performer</b>: <a href=\"#Practitioner_scenario1-us-core-practitioner\">See above (Practitioner/scenario1-us-core-practitioner)</a></p><p><b>value</b>: <span title=\"Codes: {http://loinc.org LA6577-6}\">Negative</span></p></div>"},"status":"final","category":[{"coding":[{"system":"http://terminology.hl7.org/CodeSystem/observation-category","code":"laboratory"}]}],"code":{"coding":[{"system":"http://loinc.org","code":"85339-0","display":"Progesterone receptor Ag [Presence] in Breast cancer specimen by Immune stain"}]},"subject":{"reference":"Patient/scenario1-mcode-cancer-patient"},"effectiveDateTime":"2018-03-10","performer":[{"reference":"Practitioner/scenario1-us-core-practitioner"}],"valueCodeableConcept":{"coding":[{"system":"http://loinc.org","code":"LA6577-6","display":"Negative"}]}}},{"fullUrl":"http://example.org/fhir/Observation/scenario1-mcode-tumor-marker-test-her2","resource":{"resourceType":"Observation","id":"scenario1-mcode-tumor-marker-test-her2","meta":{"profile":["http://hl7.org/fhir/us/mcode/StructureDefinition/mcode-tumor-marker-test"]},"text":{"status":"generated","div":"<div xmlns=\"http://www.w3.org/1999/xhtml\"><p><b>Generated Narrative</b></p><p></p><p><b>category</b>: <span title=\"Codes: {http://terminology.hl7.org/CodeSystem/observation-category laboratory}\">Laboratory</span></p><p><b>code</b>: <span title=\"Codes: {http://loinc.org 48676-1}\">HER2 [Interpretation] in Tissue</span></p><p><b>subject</b>: <a href=\"#Patient_scenario1-mcode-cancer-patient\">See above (Patient/scenario1-mcode-cancer-patient)</a></p><p><b>effective</b>: 2018-03-10</p><p><b>performer</b>: <a href=\"#Practitioner_scenario1-us-core-practitioner\">See above (Practitioner/scenario1-us-core-practitioner)</a></p><p><b>value</b>: <span title=\"Codes: {http://loinc.org LA6577-6}\">Negative</span></p></div>"},"status":"final","category":[{"coding":[{"system":"http://terminology.hl7.org/CodeSystem/observation-category","code":"laboratory"}]}],"code":{"coding":[{"system":"http://loinc.org","code":"48676-1","display":"HER2 [Interpretation] in Tissue"}]},"subject":{"reference":"Patient/scenario1-mcode-cancer-patient"},"effectiveDateTime":"2018-03-10","performer":[{"reference":"Practitioner/scenario1-us-core-practitioner"}],"valueCodeableConcept":{"coding":[{"system":"http://loinc.org","code":"LA6577-6","display":"Negative"}]}}},{"fullUrl":"http://example.org/fhir/Observation/scenario1-mcode-tumor-marker-test-oncotype-dx","resource":{"resourceType":"Observation","id":"scenario1-mcode-tumor-marker-test-oncotype-dx","meta":{"profile":["http://hl7.org/fhir/us/mcode/StructureDefinition/mcode-tumor-marker-test"]},"text":{"status":"generated","div":"<div xmlns=\"http://www.w3.org/1999/xhtml\"><p><b>Generated Narrative</b></p><p></p><p><b>category</b>: <span title=\"Codes: {http://terminology.hl7.org/CodeSystem/observation-category laboratory}\">Laboratory</span></p><p><b>code</b>: <span title=\"Codes: {http://www.ncbi.nlm.nih.gov/gtr 509910}\">Oncotype DX Breast Recurrence Score Assay</span></p><p><b>subject</b>: <a href=\"#Patient_scenario1-mcode-cancer-patient\">See above (Patient/scenario1-mcode-cancer-patient)</a></p><p><b>effective</b>: 2018-03-20</p><p><b>performer</b>: <a href=\"#Practitioner_scenario1-us-core-practitioner\">See above (Practitioner/scenario1-us-core-practitioner)</a></p><p><b>value</b>: 47 {ScoreOf}</p><p><b>interpretation</b>: <span title=\"Codes: {http://terminology.hl7.org/CodeSystem/v3-ObservationInterpretation H}\">High</span></p></div>"},"status":"final","category":[{"coding":[{"system":"http://terminology.hl7.org/CodeSystem/observation-category","code":"laboratory"}]}],"code":{"coding":[{"system":"http://www.ncbi.nlm.nih.gov/gtr","code":"509910","display":"Oncotype DX Breast Recurrence Score Assay"}]},"subject":{"reference":"Patient/scenario1-mcode-cancer-patient"},"effectiveDateTime":"2018-03-20","performer":[{"reference":"Practitioner/scenario1-us-core-practitioner"}],"valueQuantity":{"value":47,"system":"http://unitsofmeasure.org","code":"{ScoreOf}"},"interpretation":[{"coding":[{"system":"http://terminology.hl7.org/CodeSystem/v3-ObservationInterpretation","code":"H","display":"High"}]}]}},{"fullUrl":"http://example.org/fhir/MedicationRequest/scenario1-mcode-cancer-related-medication-chemo-doxorubicin","resource":{"resourceType":"MedicationRequest","id":"scenario1-mcode-cancer-related-medication-chemo-doxorubicin","meta":{"profile":["http://hl7.org/fhir/us/mcode/StructureDefinition/mcode-cancer-related-medication-request"]},"text":{"status":"extensions","div":"<div xmlns=\"http://www.w3.org/1999/xhtml\"><p><b>Generated Narrative</b></p><p><b>Treatment Intent</b>: <span title=\"Codes: {http://snomed.info/sct 373808002}\">Curative - procedure intent (qualifier value)</span></p><p><b>status</b>: active</p><p><b>intent</b>: order</p><p><b>category</b>: <span title=\"Codes: {http://terminology.hl7.org/CodeSystem/medicationrequest-category outpatient}\">Outpatient</span></p><p><b>medication</b>: <span title=\"Codes: {http://www.nlm.nih.gov/research/umls/rxnorm 3639}\">DOXOrubicin</span></p><p><b>subject</b>: <a href=\"#Patient_scenario1-mcode-cancer-patient\">See above (Patient/scenario1-mcode-cancer-patient)</a></p><p><b>authoredOn</b>: 2019-04-01</p><p><b>requester</b>: <a href=\"#Practitioner_scenario1-us-core-practitioner\">See above (Practitioner/scenario1-us-core-practitioner)</a></p><h3>DosageInstructions</h3><table class=\"grid\"><tr><td>-</td></tr><tr><td>*</td></tr></table></div>"},"extension":[{"url":"http://hl7.org/fhir/us/mcode/StructureDefinition/mcode-treatment-intent","valueCodeableConcept":{"coding":[{"system":"http://snomed.info/sct","code":"373808002","display":"Curative - procedure intent (qualifier value)"}]}}],"status":"active","intent":"order","category":[{"coding":[{"system":"http://terminology.hl7.org/CodeSystem/medicationrequest-category","code":"outpatient"}]}],"medicationCodeableConcept":{"coding":[{"system":"http://www.nlm.nih.gov/research/umls/rxnorm","code":"3639","display":"DOXOrubicin"}]},"subject":{"reference":"Patient/scenario1-mcode-cancer-patient"},"authoredOn":"2019-04-01","requester":{"reference":"Practitioner/scenario1-us-core-practitioner"},"dosageInstruction":[{"text":"doxorubicin (60 mg/m² IV), 93.26mg","timing":{"repeat":{"boundsPeriod":{"start":"2019-04-01"}}},"route":{"coding":[{"system":"http://snomed.info/sct","code":"47625008","display":"Intravenous route (qualifier value)"}]},"doseAndRate":[{"doseQuantity":{"value":93.26,"system":"http://unitsofmeasure.org","code":"mg"}}],"maxDosePerPeriod":{"numerator":{"value":1},"denominator":{"value":3,"unit":"week","system":"http://unitsofmeasure.org","code":"wk"}}}]}},{"fullUrl":"http://example.org/fhir/MedicationRequest/scenario1-mcode-cancer-related-medication-chemo-cyclophosphamide","resource":{"resourceType":"MedicationRequest","id":"scenario1-mcode-cancer-related-medication-chemo-cyclophosphamide","meta":{"profile":["http://hl7.org/fhir/us/mcode/StructureDefinition/mcode-cancer-related-medication-request"]},"text":{"status":"extensions","div":"<div xmlns=\"http://www.w3.org/1999/xhtml\"><p><b>Generated Narrative</b></p><p><b>Treatment Intent</b>: <span title=\"Codes: {http://snomed.info/sct 373808002}\">Curative - procedure intent (qualifier value)</span></p><p><b>status</b>: active</p><p><b>intent</b>: order</p><p><b>category</b>: <span title=\"Codes: {http://terminology.hl7.org/CodeSystem/medicationrequest-category outpatient}\">Outpatient</span></p><p><b>medication</b>: <span title=\"Codes: {http://www.nlm.nih.gov/research/umls/rxnorm 3002}\">cyclophosphamide</span></p><p><b>subject</b>: <a href=\"#Patient_scenario1-mcode-cancer-patient\">See above (Patient/scenario1-mcode-cancer-patient)</a></p><p><b>authoredOn</b>: 2018-04-01</p><p><b>requester</b>: <a href=\"#Practitioner_scenario1-us-core-practitioner\">See above (Practitioner/scenario1-us-core-practitioner)</a></p><h3>DosageInstructions</h3><table class=\"grid\"><tr><td>-</td></tr><tr><td>*</td></tr></table></div>"},"extension":[{"url":"http://hl7.org/fhir/us/mcode/StructureDefinition/mcode-treatment-intent","valueCodeableConcept":{"coding":[{"system":"http://snomed.info/sct","code":"373808002","display":"Curative - procedure intent (qualifier value)"}]}}],"status":"active","intent":"order","category":[{"coding":[{"system":"http://terminology.hl7.org/CodeSystem/medicationrequest-category","code":"outpatient"}]}],"medicationCodeableConcept":{"coding":[{"system":"http://www.nlm.nih.gov/research/umls/rxnorm","code":"3002","display":"cyclophosphamide"}]},"subject":{"reference":"Patient/scenario1-mcode-cancer-patient"},"authoredOn":"2018-04-01","requester":{"reference":"Practitioner/scenario1-us-core-practitioner"},"dosageInstruction":[{"text":"cyclophosphamide (600 mg/m² IV), 932.59mg","timing":{"repeat":{"boundsPeriod":{"start":"2018-04-01"}}},"route":{"coding":[{"system":"http://snomed.info/sct","code":"47625008","display":"Intravenous route (qualifier value)"}]},"doseAndRate":[{"doseQuantity":{"value":932.59,"system":"http://unitsofmeasure.org","code":"mg"}}],"maxDosePerPeriod":{"numerator":{"value":1},"denominator":{"value":3,"unit":"week","system":"http://unitsofmeasure.org","code":"wk"}}}]}},{"fullUrl":"http://example.org/fhir/MedicationRequest/scenario1-mcode-cancer-related-medication-chemo-paclitaxel","resource":{"resourceType":"MedicationRequest","id":"scenario1-mcode-cancer-related-medication-chemo-paclitaxel","meta":{"profile":["http://hl7.org/fhir/us/mcode/StructureDefinition/mcode-cancer-related-medication-request"]},"text":{"status":"extensions","div":"<div xmlns=\"http://www.w3.org/1999/xhtml\"><p><b>Generated Narrative</b></p><p><b>Treatment Intent</b>: <span title=\"Codes: {http://snomed.info/sct 373808002}\">Curative - procedure intent (qualifier value)</span></p><p><b>status</b>: active</p><p><b>intent</b>: order</p><p><b>category</b>: <span title=\"Codes: {http://terminology.hl7.org/CodeSystem/medicationrequest-category outpatient}\">Outpatient</span></p><p><b>medication</b>: <span title=\"Codes: {http://www.nlm.nih.gov/research/umls/rxnorm 56946}\">PACLitaxel</span></p><p><b>subject</b>: <a href=\"#Patient_scenario1-mcode-cancer-patient\">See above (Patient/scenario1-mcode-cancer-patient)</a></p><p><b>authoredOn</b>: 2018-04-01</p><p><b>requester</b>: <a href=\"#Practitioner_scenario1-us-core-practitioner\">See above (Practitioner/scenario1-us-core-practitioner)</a></p><h3>DosageInstructions</h3><table class=\"grid\"><tr><td>-</td></tr><tr><td>*</td></tr></table></div>"},"extension":[{"url":"http://hl7.org/fhir/us/mcode/StructureDefinition/mcode-treatment-intent","valueCodeableConcept":{"coding":[{"system":"http://snomed.info/sct","code":"373808002","display":"Curative - procedure intent (qualifier value)"}]}}],"status":"active","intent":"order","category":[{"coding":[{"system":"http://terminology.hl7.org/CodeSystem/medicationrequest-category","code":"outpatient"}]}],"medicationCodeableConcept":{"coding":[{"system":"http://www.nlm.nih.gov/research/umls/rxnorm","code":"56946","display":"PACLitaxel"}]},"subject":{"reference":"Patient/scenario1-mcode-cancer-patient"},"authoredOn":"2018-04-01","requester":{"reference":"Practitioner/scenario1-us-core-practitioner"},"dosageInstruction":[{"text":"doxorubicin (175 mg/m² IV), 272.01mg","timing":{"repeat":{"boundsPeriod":{"start":"2018-04-01"}}},"route":{"coding":[{"system":"http://snomed.info/sct","code":"47625008","display":"Intravenous route (qualifier value)"}]},"doseAndRate":[{"doseQuantity":{"value":272.01,"system":"http://unitsofmeasure.org","code":"mg"}}],"maxDosePerPeriod":{"numerator":{"value":1},"denominator":{"value":3,"unit":"week","system":"http://unitsofmeasure.org","code":"wk"}}}]}},{"fullUrl":"http://example.org/fhir/MedicationRequest/scenario1-mcode-cancer-related-medication-anastrozole","resource":{"resourceType":"MedicationRequest","id":"scenario1-mcode-cancer-related-medication-anastrozole","meta":{"profile":["http://hl7.org/fhir/us/mcode/StructureDefinition/mcode-cancer-related-medication-request"]},"text":{"status":"extensions","div":"<div xmlns=\"http://www.w3.org/1999/xhtml\"><p><b>Generated Narrative</b></p><p><b>Treatment Intent</b>: <span title=\"Codes: {http://snomed.info/sct 373808002}\">Curative - procedure intent (qualifier value)</span></p><p><b>status</b>: active</p><p><b>intent</b>: order</p><p><b>category</b>: <span title=\"Codes: {http://terminology.hl7.org/CodeSystem/medicationrequest-category community}\">Community</span></p><p><b>medication</b>: <span title=\"Codes: {http://www.nlm.nih.gov/research/umls/rxnorm 84857}\">anastrozole</span></p><p><b>subject</b>: <a href=\"#Patient_scenario1-mcode-cancer-patient\">See above (Patient/scenario1-mcode-cancer-patient)</a></p><p><b>authoredOn</b>: 2018-05-01</p><p><b>requester</b>: <a href=\"#Practitioner_scenario1-us-core-practitioner\">See above (Practitioner/scenario1-us-core-practitioner)</a></p><h3>DosageInstructions</h3><table class=\"grid\"><tr><td>-</td></tr><tr><td>*</td></tr></table></div>"},"extension":[{"url":"http://hl7.org/fhir/us/mcode/StructureDefinition/mcode-treatment-intent","valueCodeableConcept":{"coding":[{"system":"http://snomed.info/sct","code":"373808002","display":"Curative - procedure intent (qualifier value)"}]}}],"status":"active","intent":"order","category":[{"coding":[{"system":"http://terminology.hl7.org/CodeSystem/medicationrequest-category","code":"community"}]}],"medicationCodeableConcept":{"coding":[{"system":"http://www.nlm.nih.gov/research/umls/rxnorm","code":"84857","display":"anastrozole"}]},"subject":{"reference":"Patient/scenario1-mcode-cancer-patient"},"authoredOn":"2018-05-01","requester":{"reference":"Practitioner/scenario1-us-core-practitioner"},"dosageInstruction":[{"text":"1mg orally once daily","timing":{"repeat":{"boundsPeriod":{"start":"2018-05-01"}}},"route":{"coding":[{"system":"http://snomed.info/sct","code":"26643006","display":"Oral route (qualifier value)"}]},"doseAndRate":[{"doseQuantity":{"value":1,"system":"http://unitsofmeasure.org","code":"mg"}}],"maxDosePerPeriod":{"numerator":{"value":1},"denominator":{"value":1,"unit":"day","system":"http://unitsofmeasure.org","code":"d"}}}]}},{"fullUrl":"http://example.org/fhir/Observation/scenario1-mcode-cancer-related-comorbidities","resource":{"resourceType":"Observation","id":"scenario1-mcode-cancer-related-comorbidities","meta":{"profile":["http://hl7.org/fhir/us/mcode/StructureDefinition/mcode-cancer-related-comorbidities"]},"text":{"status":"extensions","div":"<div xmlns=\"http://www.w3.org/1999/xhtml\"><p><b>Generated Narrative</b></p><p></p><p><b>code</b>: <span title=\"Codes: {http://loinc.org 78923-0}\">Comorbid condition panel</span></p><p><b>subject</b>: <a href=\"#Patient_scenario1-mcode-cancer-patient\">See above (Patient/scenario1-mcode-cancer-patient)</a></p><p><b>performer</b>: <a href=\"#Practitioner_scenario1-us-core-practitioner\">See above (Practitioner/scenario1-us-core-practitioner)</a></p><blockquote><p><b>component</b></p><p><b>Comorbid Condition Reference</b>: <a href=\"Condition-scenario1-mcode-comorbid-condition-depression.html\">Generated Summary: <span title=\"Codes: {http://terminology.hl7.org/CodeSystem/condition-clinical active}\">Active</span>; <span title=\"Codes: {http://terminology.hl7.org/CodeSystem/condition-ver-status confirmed}\">Confirmed</span>; <span title=\"Codes: {http://terminology.hl7.org/CodeSystem/condition-category problem-list-item}\">Problem List Item</span>; <span title=\"Codes: {http://snomed.info/sct 35489007}\">Depressive disorder (disorder)</span>; onset: 2000-01-01</a></p><p><b>code</b>: <span title=\"Codes: {http://hl7.org/fhir/us/mcode/CodeSystem/mcode-elixhauser-category DEPRESS}\">Depression</span></p><p><b>value</b>: <span title=\"Codes: {http://snomed.info/sct 52101004}\">Present (qualifier value)</span></p></blockquote><blockquote><p><b>component</b></p><p><b>Comorbid Condition Reference</b>: <a href=\"Condition-scenario1-mcode-comorbid-condition-hypertension.html\">Generated Summary: <span title=\"Codes: {http://terminology.hl7.org/CodeSystem/condition-clinical active}\">Active</span>; <span title=\"Codes: {http://terminology.hl7.org/CodeSystem/condition-ver-status confirmed}\">Confirmed</span>; <span title=\"Codes: {http://terminology.hl7.org/CodeSystem/condition-category problem-list-item}\">Problem List Item</span>; <span title=\"Codes: {http://snomed.info/sct 77970009}\">Benign hypertensive heart disease without congestive heart failure (disorder)</span>; onset: 2000-01-01</a></p><p><b>code</b>: <span title=\"Codes: {http://hl7.org/fhir/us/mcode/CodeSystem/mcode-elixhauser-category HTNCX}\">Hypertension with complications</span></p><p><b>value</b>: <span title=\"Codes: {http://snomed.info/sct 52101004}\">Present (qualifier value)</span></p></blockquote><blockquote><p><b>component</b></p><p><b>code</b>: <span title=\"Codes: {http://hl7.org/fhir/us/mcode/CodeSystem/mcode-elixhauser-category ARTH}\">Rheumatoid Arthritis</span></p><p><b>value</b>: <span title=\"Codes: {http://snomed.info/sct 2667000}\">Absent (qualifier value)</span></p></blockquote><blockquote><p><b>component</b></p><p><b>code</b>: <span title=\"Codes: {http://hl7.org/fhir/us/mcode/CodeSystem/mcode-elixhauser-category CHF}\">Congestive Heart Failure</span></p><p><b>value</b>: <span title=\"Codes: {http://snomed.info/sct 2667000}\">Absent (qualifier value)</span></p></blockquote><blockquote><p><b>component</b></p><p><b>code</b>: <span title=\"Codes: {http://hl7.org/fhir/us/mcode/CodeSystem/mcode-elixhauser-category CHRNLUNG}\">Chronic Pulmonary Disease</span></p><p><b>value</b>: <span title=\"Codes: {http://snomed.info/sct 2667000}\">Absent (qualifier value)</span></p></blockquote><blockquote><p><b>component</b></p><p><b>code</b>: <span title=\"Codes: {http://hl7.org/fhir/us/mcode/CodeSystem/mcode-elixhauser-category DM}\">Diabetes without chronic complications</span></p><p><b>value</b>: <span title=\"Codes: {http://snomed.info/sct 2667000}\">Absent (qualifier value)</span></p></blockquote><blockquote><p><b>component</b></p><p><b>code</b>: <span title=\"Codes: {http://hl7.org/fhir/us/mcode/CodeSystem/mcode-elixhauser-category DMCX}\">Diabetes with chronic complication</span></p><p><b>value</b>: <span title=\"Codes: {http://snomed.info/sct 2667000}\">Absent (qualifier value)</span></p></blockquote><blockquote><p><b>component</b></p><p><b>code</b>: <span title=\"Codes: {http://hl7.org/fhir/us/mcode/CodeSystem/mcode-elixhauser-category OBESE}\">Obesity</span></p><p><b>value</b>: <span title=\"Codes: {http://snomed.info/sct 2667000}\">Absent (qualifier value)</span></p></blockquote><blockquote><p><b>component</b></p><p><b>code</b>: <span title=\"Codes: {http://hl7.org/fhir/us/mcode/CodeSystem/mcode-elixhauser-category PERIVASC}\">Peripheral Vascular Disease</span></p><p><b>value</b>: <span title=\"Codes: {http://snomed.info/sct 2667000}\">Absent (qualifier value)</span></p></blockquote><blockquote><p><b>component</b></p><p><b>code</b>: <span title=\"Codes: {http://hl7.org/fhir/us/mcode/CodeSystem/mcode-elixhauser-category PULMCIRC}\">Pulmonary Circulation Disorders</span></p><p><b>value</b>: <span title=\"Codes: {http://snomed.info/sct 2667000}\">Absent (qualifier value)</span></p></blockquote><blockquote><p><b>component</b></p><p><b>code</b>: <span title=\"Codes: {http://hl7.org/fhir/us/mcode/CodeSystem/mcode-elixhauser-category RENLFAIL}\">Renal Failure</span></p><p><b>value</b>: <span title=\"Codes: {http://snomed.info/sct 2667000}\">Absent (qualifier value)</span></p></blockquote><blockquote><p><b>component</b></p><p><b>code</b>: <span title=\"Codes: {http://hl7.org/fhir/us/mcode/CodeSystem/mcode-elixhauser-category DRUG}\">Drug Abuse</span></p><p><b>value</b>: <span title=\"Codes: {http://snomed.info/sct 261665006}\">Unknown (qualifier value)</span></p></blockquote><blockquote><p><b>component</b></p><p><b>code</b>: <span title=\"Codes: {http://hl7.org/fhir/us/mcode/CodeSystem/mcode-elixhauser-category HYPOTHY}\">Hypothyroidism</span></p><p><b>value</b>: <span title=\"Codes: {http://snomed.info/sct 261665006}\">Unknown (qualifier value)</span></p></blockquote></div>"},"status":"final","code":{"coding":[{"system":"http://loinc.org","code":"78923-0"}]},"subject":{"reference":"Patient/scenario1-mcode-cancer-patient"},"performer":[{"reference":"Practitioner/scenario1-us-core-practitioner"}],"component":[{"extension":[{"url":"http://hl7.org/fhir/us/mcode/StructureDefinition/mcode-comorbid-condition-reference","valueReference":{"reference":"Condition/scenario1-mcode-comorbid-condition-depression"}}],"code":{"coding":[{"system":"http://hl7.org/fhir/us/mcode/CodeSystem/mcode-elixhauser-category","code":"DEPRESS"}]},"valueCodeableConcept":{"coding":[{"system":"http://snomed.info/sct","code":"52101004","display":"Present (qualifier value)"}]}},{"extension":[{"url":"http://hl7.org/fhir/us/mcode/StructureDefinition/mcode-comorbid-condition-reference","valueReference":{"reference":"Condition/scenario1-mcode-comorbid-condition-hypertension"}}],"code":{"coding":[{"system":"http://hl7.org/fhir/us/mcode/CodeSystem/mcode-elixhauser-category","code":"HTNCX"}]},"valueCodeableConcept":{"coding":[{"system":"http://snomed.info/sct","code":"52101004","display":"Present (qualifier value)"}]}},{"code":{"coding":[{"system":"http://hl7.org/fhir/us/mcode/CodeSystem/mcode-elixhauser-category","code":"ARTH"}]},"valueCodeableConcept":{"coding":[{"system":"http://snomed.info/sct","code":"2667000","display":"Absent (qualifier value)"}]}},{"code":{"coding":[{"system":"http://hl7.org/fhir/us/mcode/CodeSystem/mcode-elixhauser-category","code":"CHF"}]},"valueCodeableConcept":{"coding":[{"system":"http://snomed.info/sct","code":"2667000","display":"Absent (qualifier value)"}]}},{"code":{"coding":[{"system":"http://hl7.org/fhir/us/mcode/CodeSystem/mcode-elixhauser-category","code":"CHRNLUNG"}]},"valueCodeableConcept":{"coding":[{"system":"http://snomed.info/sct","code":"2667000","display":"Absent (qualifier value)"}]}},{"code":{"coding":[{"system":"http://hl7.org/fhir/us/mcode/CodeSystem/mcode-elixhauser-category","code":"DM"}]},"valueCodeableConcept":{"coding":[{"system":"http://snomed.info/sct","code":"2667000","display":"Absent (qualifier value)"}]}},{"code":{"coding":[{"system":"http://hl7.org/fhir/us/mcode/CodeSystem/mcode-elixhauser-category","code":"DMCX"}]},"valueCodeableConcept":{"coding":[{"system":"http://snomed.info/sct","code":"2667000","display":"Absent (qualifier value)"}]}},{"code":{"coding":[{"system":"http://hl7.org/fhir/us/mcode/CodeSystem/mcode-elixhauser-category","code":"OBESE"}]},"valueCodeableConcept":{"coding":[{"system":"http://snomed.info/sct","code":"2667000","display":"Absent (qualifier value)"}]}},{"code":{"coding":[{"system":"http://hl7.org/fhir/us/mcode/CodeSystem/mcode-elixhauser-category","code":"PERIVASC"}]},"valueCodeableConcept":{"coding":[{"system":"http://snomed.info/sct","code":"2667000","display":"Absent (qualifier value)"}]}},{"code":{"coding":[{"system":"http://hl7.org/fhir/us/mcode/CodeSystem/mcode-elixhauser-category","code":"PULMCIRC"}]},"valueCodeableConcept":{"coding":[{"system":"http://snomed.info/sct","code":"2667000","display":"Absent (qualifier value)"}]}},{"code":{"coding":[{"system":"http://hl7.org/fhir/us/mcode/CodeSystem/mcode-elixhauser-category","code":"RENLFAIL"}]},"valueCodeableConcept":{"coding":[{"system":"http://snomed.info/sct","code":"2667000","display":"Absent (qualifier value)"}]}},{"code":{"coding":[{"system":"http://hl7.org/fhir/us/mcode/CodeSystem/mcode-elixhauser-category","code":"DRUG"}]},"valueCodeableConcept":{"coding":[{"system":"http://snomed.info/sct","code":"261665006","display":"Unknown (qualifier value)"}]}},{"code":{"coding":[{"system":"http://hl7.org/fhir/us/mcode/CodeSystem/mcode-elixhauser-category","code":"HYPOTHY"}]},"valueCodeableConcept":{"coding":[{"system":"http://snomed.info/sct","code":"261665006","display":"Unknown (qualifier value)"}]}}]}},{"fullUrl":"http://example.org/fhir/Observation/scenario1-body-weight","resource":{"resourceType":"Observation","id":"scenario1-body-weight","meta":{"profile":["http://hl7.org/fhir/StructureDefinition/bodyweight"]},"text":{"status":"generated","div":"<div xmlns=\"http://www.w3.org/1999/xhtml\"><p><b>Generated Narrative</b></p><p></p><p><b>category</b>: <span title=\"Codes: {http://terminology.hl7.org/CodeSystem/observation-category vital-signs}\">Vital Signs</span></p><p><b>code</b>: <span title=\"Codes: {http://loinc.org 29463-7}\">Body weight</span></p><p><b>subject</b>: <a href=\"#Patient_scenario1-mcode-cancer-patient\">See above (Patient/scenario1-mcode-cancer-patient)</a></p><p><b>effective</b>: Mar 6, 2018, 12:00:00 AM</p><p><b>value</b>: 155 lb</p></div>"},"status":"final","category":[{"coding":[{"system":"http://terminology.hl7.org/CodeSystem/observation-category","code":"vital-signs"}]}],"code":{"coding":[{"system":"http://loinc.org","code":"29463-7"}]},"subject":{"reference":"Patient/scenario1-mcode-cancer-patient"},"effectiveDateTime":"2018-03-06T00:00:00Z","valueQuantity":{"value":155,"unit":"lb","system":"http://unitsofmeasure.org","code":"[lb_av]"}}},{"fullUrl":"http://example.org/fhir/Observation/scenario1-neutrophils","resource":{"resourceType":"Observation","id":"scenario1-neutrophils","meta":{"profile":["http://hl7.org/fhir/us/core/StructureDefinition/us-core-observation-lab"]},"text":{"status":"generated","div":"<div xmlns=\"http://www.w3.org/1999/xhtml\"><p><b>Generated Narrative</b></p><p></p><p><b>category</b>: <span title=\"Codes: {http://terminology.hl7.org/CodeSystem/observation-category laboratory}\">Laboratory</span></p><p><b>code</b>: <span title=\"Codes: {http://loinc.org 770-8}\">Neutrophils/100 leukocytes in Blood by Automated count</span></p><p><b>subject</b>: <a href=\"#Patient_scenario1-mcode-cancer-patient\">See above (Patient/scenario1-mcode-cancer-patient)</a></p><p><b>effective</b>: Mar 6, 2018, 12:00:00 AM</p><p><b>value</b>: 40 %</p><h3>ReferenceRanges</h3><table class=\"grid\"><tr><td>-</td><td><b>Low</b></td><td><b>High</b></td><td><b>AppliesTo</b></td></tr><tr><td>*</td><td>37 %</td><td>67 %</td><td><span title=\"Codes: {http://terminology.hl7.org/CodeSystem/referencerange-meaning normal}\">Normal Range</span></td></tr></table></div>"},"status":"final","category":[{"coding":[{"system":"http://terminology.hl7.org/CodeSystem/observation-category","code":"laboratory"}]}],"code":{"coding":[{"system":"http://loinc.org","code":"770-8","display":"Neutrophils/100 leukocytes in Blood by Automated count"}]},"subject":{"reference":"Patient/scenario1-mcode-cancer-patient"},"effectiveDateTime":"2018-03-06T00:00:00Z","valueQuantity":{"value":40,"system":"http://unitsofmeasure.org","code":"%"},"referenceRange":[{"low":{"value":37,"system":"http://unitsofmeasure.org","code":"%"},"high":{"value":67,"system":"http://unitsofmeasure.org","code":"%"},"appliesTo":[{"coding":[{"system":"http://terminology.hl7.org/CodeSystem/referencerange-meaning","code":"normal","display":"Normal Range"}]}]}]}},{"fullUrl":"http://example.org/fhir/Organization/scenario1-organization1-mcode","resource":{"resourceType":"Organization","id":"scenario1-organization1-mcode","text":{"status":"generated","div":"<div xmlns=\"http://www.w3.org/1999/xhtml\"><p><b>Generated Narrative</b></p><p><b>active</b>: true</p><p><b>type</b>: <span title=\"Codes: {http://terminology.hl7.org/CodeSystem/organization-type prov}\">Healthcare Provider</span></p><p><b>name</b>: Physician Services, Inc.</p><p><b>telecom</b>: ph: 999-999-9999(WORK)</p><p><b>address</b>: 123 Corporate Drive Anytown MA 12345 US </p></div>"},"active":true,"type":[{"coding":[{"system":"http://terminology.hl7.org/CodeSystem/organization-type","code":"prov","display":"Healthcare Provider"}]}],"name":"Physician Services, Inc.","telecom":[{"system":"phone","value":"999-999-9999","use":"work"}],"address":[{"line":["123 Corporate Drive"],"city":"Anytown","state":"MA","postalCode":"12345","country":"US"}]}},{"fullUrl":"http://example.org/fhir/Observation/scenario1-us-core-smoking-status","resource":{"resourceType":"Observation","id":"scenario1-us-core-smoking-status","meta":{"profile":["http://hl7.org/fhir/us/core/StructureDefinition/us-core-smokingstatus"]},"text":{"status":"generated","div":"<div xmlns=\"http://www.w3.org/1999/xhtml\"><p><b>Generated Narrative</b></p><p></p><p><b>code</b>: <span title=\"Codes: {http://loinc.org 72166-2}\">Tobacco smoking status</span></p><p><b>subject</b>: <a href=\"#Patient_scenario1-mcode-cancer-patient\">See above (Patient/scenario1-mcode-cancer-patient)</a></p><p><b>issued</b>: Mar 1, 2018, 12:00:00 AM</p><p><b>value</b>: <span title=\"Codes: {http://snomed.info/sct 449868002}\">Smokes tobacco daily (finding)</span></p></div>"},"status":"final","code":{"coding":[{"system":"http://loinc.org","code":"72166-2","display":"Tobacco smoking status"}]},"subject":{"reference":"Patient/scenario1-mcode-cancer-patient"},"issued":"2018-03-01T00:00:00Z","valueCodeableConcept":{"coding":[{"system":"http://snomed.info/sct","code":"449868002","display":"Smokes tobacco daily (finding)"}]}}},{"fullUrl":"http://example.org/fhir/Observation/scenario1-us-core-procedure-biopsy","resource":{"resourceType":"Procedure","id":"scenario1-us-core-procedure-biopsy","meta":{"profile":["http://hl7.org/fhir/us/core/StructureDefinition/us-core-procedure"]},"text":{"status":"generated","div":"<div xmlns=\"http://www.w3.org/1999/xhtml\"><p><b>Generated Narrative</b></p><p><b>status</b>: completed</p><p><b>code</b>: <span title=\"Codes: {http://snomed.info/sct 723990008}\">Biopsy of breast using ultrasonographic guidance (procedure)</span></p><p><b>subject</b>: <a href=\"#Patient_scenario1-mcode-cancer-patient\">See above (Patient/scenario1-mcode-cancer-patient)</a></p><p><b>performed</b>: 2018-03-01</p><p><b>asserter</b>: <a href=\"#Practitioner_scenario1-us-core-practitioner\">See above (Practitioner/scenario1-us-core-practitioner)</a></p><h3>Performers</h3><table class=\"grid\"><tr><td>-</td><td><b>Actor</b></td></tr><tr><td>*</td><td><a href=\"#Practitioner_scenario1-us-core-practitioner\">See above (Practitioner/scenario1-us-core-practitioner)</a></td></tr></table><p><b>reasonReference</b>: <a href=\"#Condition_scenario1-mcode-primary-cancer-condition\">See above (Condition/scenario1-mcode-primary-cancer-condition)</a></p><p><b>bodySite</b>: <span title=\"Codes: {http://snomed.info/sct 80248007}\">Left breast structure (body structure)</span></p></div>"},"status":"completed","code":{"coding":[{"system":"http://snomed.info/sct","code":"723990008","display":"Biopsy of breast using ultrasonographic guidance (procedure)"}]},"subject":{"reference":"Patient/scenario1-mcode-cancer-patient"},"performedDateTime":"2018-03-01","asserter":{"reference":"Practitioner/scenario1-us-core-practitioner"},"performer":[{"actor":{"reference":"Practitioner/scenario1-us-core-practitioner"}}],"reasonReference":[{"reference":"Condition/scenario1-mcode-primary-cancer-condition"}],"bodySite":[{"coding":[{"system":"http://snomed.info/sct","code":"80248007","display":"Left breast structure (body structure)"}]}]}},{"fullUrl":"http://example.org/fhir/Observation/scenario1-us-core-procedure-mammogram","resource":{"resourceType":"Procedure","id":"scenario1-us-core-procedure-mammogram","meta":{"profile":["http://hl7.org/fhir/us/core/StructureDefinition/us-core-procedure"]},"text":{"status":"generated","div":"<div xmlns=\"http://www.w3.org/1999/xhtml\"><p><b>Generated Narrative</b></p><p><b>status</b>: completed</p><p><b>code</b>: <span title=\"Codes: {http://snomed.info/sct 71651007}\">Mammography (procedure)</span></p><p><b>subject</b>: <a href=\"#Patient_scenario1-mcode-cancer-patient\">See above (Patient/scenario1-mcode-cancer-patient)</a></p><p><b>performed</b>: 2018-03-01</p><p><b>asserter</b>: <a href=\"#Practitioner_scenario1-us-core-practitioner\">See above (Practitioner/scenario1-us-core-practitioner)</a></p><h3>Performers</h3><table class=\"grid\"><tr><td>-</td><td><b>Actor</b></td></tr><tr><td>*</td><td><a href=\"#Practitioner_scenario1-us-core-practitioner\">See above (Practitioner/scenario1-us-core-practitioner)</a></td></tr></table></div>"},"status":"completed","code":{"coding":[{"system":"http://snomed.info/sct","code":"71651007","display":"Mammography (procedure)"}]},"subject":{"reference":"Patient/scenario1-mcode-cancer-patient"},"performedDateTime":"2018-03-01","asserter":{"reference":"Practitioner/scenario1-us-core-practitioner"},"performer":[{"actor":{"reference":"Practitioner/scenario1-us-core-practitioner"}}]}},{"fullUrl":"http://example.org/fhir/FamilyMemberHistory/scenario1-family-member-history-aunt","resource":{"resourceType":"FamilyMemberHistory","id":"scenario1-family-member-history-aunt","text":{"status":"generated","div":"<div xmlns=\"http://www.w3.org/1999/xhtml\"><p><b>Generated Narrative</b></p><p><b>status</b>: completed</p><p><b>patient</b>: <a href=\"#Patient_scenario1-mcode-cancer-patient\">See above (Patient/scenario1-mcode-cancer-patient)</a></p><p><b>relationship</b>: <span title=\"Codes: {http://terminology.hl7.org/CodeSystem/v3-RoleCode MAUNT}\">maternal aunt</span></p><h3>Conditions</h3><table class=\"grid\"><tr><td>-</td><td><b>Code</b></td><td><b>Onset[x]</b></td></tr><tr><td>*</td><td><span title=\"Codes: {http://snomed.info/sct 363443007}\">Malignant tumor of ovary (disorder)</span></td><td>69 a</td></tr></table></div>"},"status":"completed","patient":{"reference":"Patient/scenario1-mcode-cancer-patient"},"relationship":{"coding":[{"system":"http://terminology.hl7.org/CodeSystem/v3-RoleCode","code":"MAUNT","display":"maternal aunt"}]},"condition":[{"code":{"coding":[{"system":"http://snomed.info/sct","code":"363443007","display":"Malignant tumor of ovary (disorder)"}]},"onsetAge":{"value":69,"system":"http://unitsofmeasure.org","code":"a"}}]}},{"fullUrl":"http://example.org/fhir/Procedure/scenario1-us-core-procedure-mammogram","resource":{"resourceType":"Procedure","id":"scenario1-us-core-procedure-mammogram","meta":{"profile":["http://hl7.org/fhir/us/core/StructureDefinition/us-core-procedure"]},"text":{"status":"generated","div":"<div xmlns=\"http://www.w3.org/1999/xhtml\"><p><b>Generated Narrative</b></p><p><b>status</b>: completed</p><p><b>code</b>: <span title=\"Codes: {http://snomed.info/sct 71651007}\">Mammography (procedure)</span></p><p><b>subject</b>: <a href=\"#Patient_scenario1-mcode-cancer-patient\">See above (Patient/scenario1-mcode-cancer-patient)</a></p><p><b>performed</b>: 2018-03-01</p><p><b>asserter</b>: <a href=\"#Practitioner_scenario1-us-core-practitioner\">See above (Practitioner/scenario1-us-core-practitioner)</a></p><h3>Performers</h3><table class=\"grid\"><tr><td>-</td><td><b>Actor</b></td></tr><tr><td>*</td><td><a href=\"#Practitioner_scenario1-us-core-practitioner\">See above (Practitioner/scenario1-us-core-practitioner)</a></td></tr></table></div>"},"status":"completed","code":{"coding":[{"system":"http://snomed.info/sct","code":"71651007","display":"Mammography (procedure)"}]},"subject":{"reference":"Patient/scenario1-mcode-cancer-patient"},"performedDateTime":"2018-03-01","asserter":{"reference":"Practitioner/scenario1-us-core-practitioner"},"performer":[{"actor":{"reference":"Practitioner/scenario1-us-core-practitioner"}}]}},{"fullUrl":"http://example.org/fhir/FamilyMemberHistory/scenario1-family-member-history-uncle","resource":{"resourceType":"FamilyMemberHistory","id":"scenario1-family-member-history-uncle","text":{"status":"generated","div":"<div xmlns=\"http://www.w3.org/1999/xhtml\"><p><b>Generated Narrative</b></p><p><b>status</b>: completed</p><p><b>patient</b>: <a href=\"#Patient_scenario1-mcode-cancer-patient\">See above (Patient/scenario1-mcode-cancer-patient)</a></p><p><b>relationship</b>: <span title=\"Codes: {http://terminology.hl7.org/CodeSystem/v3-RoleCode PUNCLE}\">paternal uncle</span></p><p><b>deceased</b>: true</p><h3>Conditions</h3><table class=\"grid\"><tr><td>-</td><td><b>Code</b></td><td><b>ContributedToDeath</b></td></tr><tr><td>*</td><td><span title=\"Codes: {http://snomed.info/sct 363418001}\">Malignant tumor of pancreas (disorder)</span></td><td>true</td></tr></table></div>"},"status":"completed","patient":{"reference":"Patient/scenario1-mcode-cancer-patient"},"relationship":{"coding":[{"system":"http://terminology.hl7.org/CodeSystem/v3-RoleCode","code":"PUNCLE","display":"paternal uncle"}]},"deceasedBoolean":true,"condition":[{"code":{"coding":[{"system":"http://snomed.info/sct","code":"363418001","display":"Malignant tumor of pancreas (disorder)"}]},"contributedToDeath":true}]}},{"fullUrl":"http://example.org/fhir/DiagnosticReport/scenario1-diagnosticreport-pathology","resource":{"resourceType":"DiagnosticReport","id":"scenario1-diagnosticreport-pathology","meta":{"profile":["http://hl7.org/fhir/us/core/StructureDefinition/us-core-diagnosticreport-lab"]},"text":{"status":"generated","div":"<div xmlns=\"http://www.w3.org/1999/xhtml\"><p><b>Generated Narrative</b></p><p><b>status</b>: final</p><p><b>category</b>: <span title=\"Codes: {http://terminology.hl7.org/CodeSystem/v2-0074 LAB}\">Laboratory</span>, <span title=\"Codes: {http://terminology.hl7.org/CodeSystem/v2-0074 SP}\">Surgical Pathology</span></p><p><b>code</b>: <span title=\"Codes: {http://loinc.org 22637-3}\">Pathology report final diagnosis Narrative</span></p><p><b>subject</b>: <a href=\"#Patient_scenario1-mcode-cancer-patient\">See above (Patient/scenario1-mcode-cancer-patient)</a></p><p><b>effective</b>: Mar 6, 2018, 12:00:00 AM</p><p><b>issued</b>: Mar 6, 2018, 12:00:00 AM</p><p><b>performer</b>: <a href=\"#Organization_scenario1-organization1-mcode\">See above (Organization/scenario1-organization1-mcode)</a></p><p><b>resultsInterpreter</b>: <a href=\"#Practitioner_scenario1-practitioner2-mcode\">See above (Practitioner/scenario1-practitioner2-mcode)</a></p><p><b>specimen</b>: <a href=\"Specimen-scenario1-specimen-tumor.html\">Generated Summary: status: available; <span title=\"Codes: {http://terminology.hl7.org/CodeSystem/v2-0487 TUMOR}\">Tumor</span>; receivedTime: 2019-03-05</a></p><p><b>result</b>: </p><ul><li><a href=\"#Observation_scenario1-observation-tumor-invasion-negative\">See above (Observation/scenario1-observation-tumor-invasion-negative)</a></li><li><a href=\"#Observation_scenario1-observation-tumor-negative-margins\">See above (Observation/scenario1-observation-tumor-negative-margins)</a></li><li><a href=\"#Observation_scenario1-observation-tumor-sentinel-nodes\">See above (Observation/scenario1-observation-tumor-sentinel-nodes)</a></li><li><a href=\"#Observation_scenario1-observation-tumor-size\">See above (Observation/scenario1-observation-tumor-size)</a></li><li><a href=\"#Observation_scenario1-observation-tumor-dcis\">See above (Observation/scenario1-observation-tumor-dcis)</a></li></ul></div>"},"status":"final","category":[{"coding":[{"system":"http://terminology.hl7.org/CodeSystem/v2-0074","code":"LAB"}]},{"coding":[{"system":"http://terminology.hl7.org/CodeSystem/v2-0074","code":"SP","display":"Surgical Pathology"}]}],"code":{"coding":[{"system":"http://loinc.org","code":"22637-3","display":"Pathology report final diagnosis Narrative"}]},"subject":{"reference":"Patient/scenario1-mcode-cancer-patient"},"effectiveDateTime":"2018-03-06T00:00:00Z","issued":"2018-03-06T00:00:00Z","performer":[{"reference":"Organization/scenario1-organization1-mcode"}],"resultsInterpreter":[{"reference":"Practitioner/scenario1-practitioner2-mcode"}],"specimen":[{"reference":"Specimen/scenario1-specimen-tumor"}],"result":[{"reference":"Observation/scenario1-observation-tumor-invasion-negative"},{"reference":"Observation/scenario1-observation-tumor-negative-margins"},{"reference":"Observation/scenario1-observation-tumor-sentinel-nodes"},{"reference":"Observation/scenario1-observation-tumor-size"},{"reference":"Observation/scenario1-observation-tumor-dcis"}]}},{"fullUrl":"http://example.org/fhir/Observation/scenario1-diagnosticreport-pathology","resource":{"resourceType":"Observation","id":"scenario1-observation-smoking-history","text":{"status":"generated","div":"<div xmlns=\"http://www.w3.org/1999/xhtml\"><p><b>Generated Narrative</b></p><p></p><p><b>category</b>: <span title=\"Codes: {http://terminology.hl7.org/CodeSystem/observation-category social-history}\">Social History</span></p><p><b>code</b>: <span title=\"Codes: {http://snomed.info/sct 401201003}\">Cigarette pack-years (observable entity)</span></p><p><b>subject</b>: <a href=\"#Patient_scenario1-mcode-cancer-patient\">See above (Patient/scenario1-mcode-cancer-patient)</a></p><p><b>effective</b>: Mar 1, 2018, 12:00:00 AM</p><p><b>value</b>: 20 {PackYears}</p></div>"},"status":"final","category":[{"coding":[{"system":"http://terminology.hl7.org/CodeSystem/observation-category","code":"social-history","display":"Social History"}]}],"code":{"coding":[{"system":"http://snomed.info/sct","code":"401201003","display":"Cigarette pack-years (observable entity)"}]},"subject":{"reference":"Patient/scenario1-mcode-cancer-patient"},"effectiveDateTime":"2018-03-01T00:00:00Z","valueQuantity":{"value":20,"system":"http://unitsofmeasure.org","code":"{PackYears}"}}},{"fullUrl":"http://example.org/fhir/Observation/scenario1-observation-tumor-invasion-negative","resource":{"resourceType":"Observation","id":"scenario1-observation-tumor-invasion-negative","meta":{"profile":["http://hl7.org/fhir/us/core/StructureDefinition/us-core-observation-lab"]},"text":{"status":"generated","div":"<div xmlns=\"http://www.w3.org/1999/xhtml\"><p><b>Generated Narrative</b></p><p></p><p><b>category</b>: <span title=\"Codes: {http://terminology.hl7.org/CodeSystem/observation-category laboratory}\">Laboratory</span></p><p><b>code</b>: <span title=\"Codes: {http://snomed.info/sct 370052007}\">Status of invasion by tumor (observable entity)</span></p><p><b>subject</b>: <a href=\"#Patient_scenario1-mcode-cancer-patient\">See above (Patient/scenario1-mcode-cancer-patient)</a></p><p><b>effective</b>: Mar 6, 2018, 12:00:00 AM</p><p><b>value</b>: <span title=\"Codes: {http://snomed.info/sct 260385009}\">Negative (qualifier value)</span></p><p><b>specimen</b>: <a href=\"Specimen-scenario1-specimen-tumor.html\">Generated Summary: status: available; <span title=\"Codes: {http://terminology.hl7.org/CodeSystem/v2-0487 TUMOR}\">Tumor</span>; receivedTime: 2019-03-05</a></p></div>"},"status":"final","category":[{"coding":[{"system":"http://terminology.hl7.org/CodeSystem/observation-category","code":"laboratory"}]}],"code":{"coding":[{"system":"http://snomed.info/sct","code":"370052007","display":"Status of invasion by tumor (observable entity)"}]},"subject":{"reference":"Patient/scenario1-mcode-cancer-patient"},"effectiveDateTime":"2018-03-06T00:00:00Z","valueCodeableConcept":{"coding":[{"system":"http://snomed.info/sct","code":"260385009","display":"Negative (qualifier value)"}]},"specimen":{"reference":"Specimen/scenario1-specimen-tumor"}}},{"fullUrl":"http://example.org/fhir/Observation/scenario1-observation-tumor-negative-margins","resource":{"resourceType":"Observation","id":"scenario1-observation-tumor-negative-margins","meta":{"profile":["http://hl7.org/fhir/us/core/StructureDefinition/us-core-observation-lab"]},"text":{"status":"generated","div":"<div xmlns=\"http://www.w3.org/1999/xhtml\"><p><b>Generated Narrative</b></p><p></p><p><b>category</b>: <span title=\"Codes: {http://terminology.hl7.org/CodeSystem/observation-category laboratory}\">Laboratory</span></p><p><b>code</b>: <span title=\"Codes: {http://loinc.org 44669-0}\">Margin involvement in Breast tumor</span></p><p><b>subject</b>: <a href=\"#Patient_scenario1-mcode-cancer-patient\">See above (Patient/scenario1-mcode-cancer-patient)</a></p><p><b>effective</b>: Mar 6, 2018, 12:00:00 AM</p><p><b>value</b>: <span title=\"Codes: {http://loinc.org LA27151-2}\">Uninvolved by invasive carcinoma</span></p><p><b>specimen</b>: <a href=\"Specimen-scenario1-specimen-tumor.html\">Generated Summary: status: available; <span title=\"Codes: {http://terminology.hl7.org/CodeSystem/v2-0487 TUMOR}\">Tumor</span>; receivedTime: 2019-03-05</a></p></div>"},"status":"final","category":[{"coding":[{"system":"http://terminology.hl7.org/CodeSystem/observation-category","code":"laboratory"}]}],"code":{"coding":[{"system":"http://loinc.org","code":"44669-0","display":"Margin involvement in Breast tumor"}]},"subject":{"reference":"Patient/scenario1-mcode-cancer-patient"},"effectiveDateTime":"2018-03-06T00:00:00Z","valueCodeableConcept":{"coding":[{"system":"http://loinc.org","code":"LA27151-2","display":"Uninvolved by invasive carcinoma"}]},"specimen":{"reference":"Specimen/scenario1-specimen-tumor"}}},{"fullUrl":"http://example.org/fhir/Observation/scenario1-observation-tumor-sentinel-nodes","resource":{"resourceType":"Observation","id":"scenario1-observation-tumor-sentinel-nodes","meta":{"profile":["http://hl7.org/fhir/us/core/StructureDefinition/us-core-observation-lab"]},"text":{"status":"generated","div":"<div xmlns=\"http://www.w3.org/1999/xhtml\"><p><b>Generated Narrative</b></p><p></p><p><b>category</b>: <span title=\"Codes: {http://terminology.hl7.org/CodeSystem/observation-category laboratory}\">Laboratory</span></p><p><b>code</b>: <span title=\"Codes: {http://loinc.org 92832-5}\">Sentinel lymph nodes with metastasis [#] in Cancer specimen</span></p><p><b>subject</b>: <a href=\"#Patient_scenario1-mcode-cancer-patient\">See above (Patient/scenario1-mcode-cancer-patient)</a></p><p><b>effective</b>: Mar 6, 2018, 12:00:00 AM</p><p><b>specimen</b>: <a href=\"Specimen-scenario1-specimen-tumor.html\">Generated Summary: status: available; <span title=\"Codes: {http://terminology.hl7.org/CodeSystem/v2-0487 TUMOR}\">Tumor</span>; receivedTime: 2019-03-05</a></p><h3>Components</h3><table class=\"grid\"><tr><td>-</td><td><b>Code</b></td><td><b>Value[x]</b></td></tr><tr><td>*</td><td><span title=\"Codes: {http://loinc.org 92833-3}\">Lymph nodes examined [#] in Cancer specimen by Light microscopy</span></td><td>3 {Count}</td></tr></table></div>"},"status":"final","category":[{"coding":[{"system":"http://terminology.hl7.org/CodeSystem/observation-category","code":"laboratory"}]}],"code":{"coding":[{"system":"http://loinc.org","code":"92832-5","display":"Sentinel lymph nodes with metastasis [#] in Cancer specimen"}]},"subject":{"reference":"Patient/scenario1-mcode-cancer-patient"},"effectiveDateTime":"2018-03-06T00:00:00Z","specimen":{"reference":"Specimen/scenario1-specimen-tumor"},"component":[{"code":{"coding":[{"system":"http://loinc.org","code":"92833-3","display":"Lymph nodes examined [#] in Cancer specimen by Light microscopy"}]},"valueQuantity":{"value":3,"system":"http://unitsofmeasure.org","code":"{Count}"}}]}},{"fullUrl":"http://example.org/fhir/Observation/scenario1-observation-tumor-size","resource":{"resourceType":"Observation","id":"scenario1-observation-tumor-size","meta":{"profile":["http://hl7.org/fhir/us/core/StructureDefinition/us-core-observation-lab"]},"text":{"status":"generated","div":"<div xmlns=\"http://www.w3.org/1999/xhtml\"><p><b>Generated Narrative</b></p><p></p><p><b>category</b>: <span title=\"Codes: {http://terminology.hl7.org/CodeSystem/observation-category laboratory}\">Laboratory</span></p><p><b>code</b>: <span title=\"Codes: {http://loinc.org 21889-1}\">Size Tumor</span></p><p><b>subject</b>: <a href=\"#Patient_scenario1-mcode-cancer-patient\">See above (Patient/scenario1-mcode-cancer-patient)</a></p><p><b>effective</b>: Mar 6, 2018, 12:00:00 AM</p><p><b>specimen</b>: <a href=\"Specimen-scenario1-specimen-tumor.html\">Generated Summary: status: available; <span title=\"Codes: {http://terminology.hl7.org/CodeSystem/v2-0487 TUMOR}\">Tumor</span>; receivedTime: 2019-03-05</a></p><h3>Components</h3><table class=\"grid\"><tr><td>-</td><td><b>Code</b></td><td><b>Value[x]</b></td></tr><tr><td>*</td><td><span title=\"Codes: {http://loinc.org 33728-7}\">Size.maximum dimension in Tumor</span></td><td>2.5 cm</td></tr></table></div>"},"status":"final","category":[{"coding":[{"system":"http://terminology.hl7.org/CodeSystem/observation-category","code":"laboratory"}]}],"code":{"coding":[{"system":"http://loinc.org","code":"21889-1","display":"Size Tumor"}]},"subject":{"reference":"Patient/scenario1-mcode-cancer-patient"},"effectiveDateTime":"2018-03-06T00:00:00Z","specimen":{"reference":"Specimen/scenario1-specimen-tumor"},"component":[{"code":{"coding":[{"system":"http://loinc.org","code":"33728-7","display":"Size.maximum dimension in Tumor"}]},"valueQuantity":{"value":2.5,"system":"http://unitsofmeasure.org","code":"cm"}}]}},{"fullUrl":"http://example.org/fhir/Observation/scenario1-observation-tumor-dcis","resource":{"resourceType":"Observation","id":"scenario1-observation-tumor-dcis","meta":{"profile":["http://hl7.org/fhir/us/core/StructureDefinition/us-core-observation-lab"]},"text":{"status":"generated","div":"<div xmlns=\"http://www.w3.org/1999/xhtml\"><p><b>Generated Narrative</b></p><p></p><p><b>category</b>: <span title=\"Codes: {http://terminology.hl7.org/CodeSystem/observation-category laboratory}\">Laboratory</span></p><p><b>code</b>: <span title=\"Codes: {http://loinc.org 29308-4}\">Diagnosis</span></p><p><b>subject</b>: <a href=\"#Patient_scenario1-mcode-cancer-patient\">See above (Patient/scenario1-mcode-cancer-patient)</a></p><p><b>effective</b>: Mar 6, 2018, 12:00:00 AM</p><p><b>value</b>: <span title=\"Codes: {http://loinc.org 85336-6}\">DCIS intraductal extension in Breast cancer specimen Qualitative by Light microscopy</span></p><p><b>specimen</b>: <a href=\"Specimen-scenario1-specimen-tumor.html\">Generated Summary: status: available; <span title=\"Codes: {http://terminology.hl7.org/CodeSystem/v2-0487 TUMOR}\">Tumor</span>; receivedTime: 2019-03-05</a></p></div>"},"status":"final","category":[{"coding":[{"system":"http://terminology.hl7.org/CodeSystem/observation-category","code":"laboratory"}]}],"code":{"coding":[{"system":"http://loinc.org","code":"29308-4","display":"Diagnosis"}]},"subject":{"reference":"Patient/scenario1-mcode-cancer-patient"},"effectiveDateTime":"2018-03-06T00:00:00Z","valueCodeableConcept":{"coding":[{"system":"http://loinc.org","code":"85336-6","display":"DCIS intraductal extension in Breast cancer specimen Qualitative by Light microscopy"}]},"specimen":{"reference":"Specimen/scenario1-specimen-tumor"}}},{"fullUrl":"http://example.org/fhir/Pracititioner/scenario1-us-core-practitioner","resource":{"resourceType":"Practitioner","id":"scenario1-us-core-practitioner","meta":{"profile":["http://hl7.org/fhir/us/core/StructureDefinition/us-core-practitioner"]},"text":{"status":"generated","div":"<div xmlns=\"http://www.w3.org/1999/xhtml\"><p><b>Generated Narrative</b></p><p><b>identifier</b>: id: 9988776655</p><p><b>name</b>: Kyle Anydoc </p><p><b>address</b>: 123 Corporate Drive Anytown MA 12345 US (WORK)</p><p><b>gender</b>: male</p><h3>Qualifications</h3><table class=\"grid\"><tr><td>-</td><td><b>Code</b></td></tr><tr><td>*</td><td><span title=\"Codes: {http://terminology.hl7.org/CodeSystem/v2-0360 MD}\">Doctor of Medicine</span></td></tr></table></div>"},"identifier":[{"system":"http://hl7.org/fhir/sid/us-npi","value":"9988776655"}],"name":[{"family":"Anydoc","given":["Kyle"],"prefix":["Dr."]}],"address":[{"use":"work","line":["123 Corporate Drive"],"city":"Anytown","state":"MA","postalCode":"12345","country":"US"}],"gender":"male","qualification":[{"code":{"coding":[{"system":"http://terminology.hl7.org/CodeSystem/v2-0360","version":"2.7","code":"MD"}]}}]}},{"fullUrl":"http://example.org/fhir/Pracititioner/scenario1-practitioner2-mcode","resource":{"resourceType":"Practitioner","id":"scenario1-practitioner2-mcode","meta":{"profile":["http://hl7.org/fhir/us/core/StructureDefinition/us-core-practitioner"]},"text":{"status":"generated","div":"<div xmlns=\"http://www.w3.org/1999/xhtml\"><p><b>Generated Narrative</b></p><p><b>identifier</b>: id: 1122334455</p><p><b>name</b>: Sam Pathologist </p><p><b>address</b>: 123 Corporate Drive Anytown MA 12345 US (WORK)</p><p><b>gender</b>: female</p><h3>Qualifications</h3><table class=\"grid\"><tr><td>-</td><td><b>Code</b></td></tr><tr><td>*</td><td><span title=\"Codes: {http://terminology.hl7.org/CodeSystem/v2-0360 MD}\">Doctor of Medicine</span></td></tr></table></div>"},"identifier":[{"system":"http://hl7.org/fhir/sid/us-npi","value":"1122334455"}],"name":[{"family":"Pathologist","given":["Sam"],"prefix":["Dr."]}],"address":[{"use":"work","line":["123 Corporate Drive"],"city":"Anytown","state":"MA","postalCode":"12345","country":"US"}],"gender":"female","qualification":[{"code":{"coding":[{"system":"http://terminology.hl7.org/CodeSystem/v2-0360","version":"2.7","code":"MD"}]}}]}}]}